MA_practice,corrAns,corrAns2,MA_baseline,MA_exp,corrAns3,Practice_trials.thisRepN,Practice_trials.thisTrialN,Practice_trials.thisN,Practice_trials.thisIndex,Baseline_block.thisRepN,Baseline_block.thisTrialN,Baseline_block.thisN,Baseline_block.thisIndex,experimental_block.thisRepN,experimental_block.thisTrialN,experimental_block.thisN,experimental_block.thisIndex,session_number_key.keys,session_number_key.corr,session_number_key.rt,trial_key.keys,trial_key.corr,trial_key.rt,basetrial_key.keys,basetrial_key.corr,basetrial_key.rt,Mani_key.keys,Mani_key.rt,exptrial_key.keys,exptrial_key.corr,exptrial_key.rt,date,frameRate,expName,session,participant,
,,,,,,,,,,,,,,,,,,0,0,3.93203418286,,,,,,,,,,,,2016_Nov_11_1350,59.8990831373,MA task,,mike,
9=3 (mod 6),z,,,,,0,0,0,2,,,,,,,,,,,,z,1,5.84795323998,,,,,,,,,2016_Nov_11_1350,59.8990831373,MA task,,mike,
6=1 (mod 3),m,,,,,0,1,1,3,,,,,,,,,,,,m,1,3.83207219318,,,,,,,,,2016_Nov_11_1350,59.8990831373,MA task,,mike,
45=27 (mod 4),m,,,,,0,2,2,5,,,,,,,,,,,,m,1,6.29778622941,,,,,,,,,2016_Nov_11_1350,59.8990831373,MA task,,mike,
44=16 (mod 3),m,,,,,0,3,3,7,,,,,,,,,,,,z,0,11.2626204516,,,,,,,,,2016_Nov_11_1350,59.8990831373,MA task,,mike,
19=12 (mod 7),z,,,,,0,4,4,8,,,,,,,,,,,,m,0,2.93241795496,,,,,,,,,2016_Nov_11_1350,59.8990831373,MA task,,mike,
98=44 (mod 3),z,,,,,0,5,5,6,,,,,,,,,,,,m,0,3.0324195693,,,,,,,,,2016_Nov_11_1350,59.8990831373,MA task,,mike,
8=5 (mod 4),m,,,,,0,6,6,1,,,,,,,,,,,,z,0,2.7824911138,,,,,,,,,2016_Nov_11_1350,59.8990831373,MA task,,mike,
7=2 (mod 5),z,,,,,0,7,7,0,,,,,,,,,,,,z,1,2.5993037802,,,,,,,,,2016_Nov_11_1350,59.8990831373,MA task,,mike,
39=35 (mod 8) ,m,,,,,0,8,8,9,,,,,,,,,,,,m,1,3.06571491677,,,,,,,,,2016_Nov_11_1350,59.8990831373,MA task,,mike,
51=19 (mod 4),z,,,,,0,9,9,4,,,,,,,,,,,,m,0,6.86425218009,,,,,,,,,2016_Nov_11_1350,59.8990831373,MA task,,mike,
27=22 (mod 3),m,,,,,0,10,10,11,,,,,,,,,,,,z,0,3.6153653393,,,,,,,,,2016_Nov_11_1350,59.8990831373,MA task,,mike,
56=52 (mod 4),z,,,,,0,11,11,10,,,,,,,,,,,,z,1,2.79930333991,,,,,,,,,2016_Nov_11_1350,59.8990831373,MA task,,mike,
,,m,6=3 (mod 2),9=7 (mod 4),m,,,,,0,0,0,3,,,,,,,,,,,m,1,2.28267272678,,,,,,2016_Nov_11_1350,59.8990831373,MA task,,mike,
,,m,84=76 (mod 5),88=79 (mod 5),m,,,,,0,1,1,19,,,,,,,,,,,m,1,0.504805956618,,,,,,2016_Nov_11_1350,59.8990831373,MA task,,mike,
,,z,22=18 (mod 4),26=22 (mod 4),z,,,,,0,2,2,22,,,,,,,,,,,z,1,4.73175835126,,,,,,2016_Nov_11_1350,59.8990831373,MA task,,mike,
,,m,77=42 (mod 4),74=49 (mod 4),m,,,,,0,3,3,11,,,,,,,,,,,z,0,7.03085769759,,,,,,2016_Nov_11_1350,59.8990831373,MA task,,mike,
,,z,9=2 (mod 7),8=4 (mod 4),z,,,,,0,4,4,2,,,,,,,,,,,m,0,2.09941421555,,,,,,2016_Nov_11_1350,59.8990831373,MA task,,mike,
,,m,85=74(mod 5),85=74 (mod 5),m,,,,,0,5,5,13,,,,,,,,,,,m,1,3.76542903224,,,,,,2016_Nov_11_1350,59.8990831373,MA task,,mike,
,,m,68=63 (mod 4),69=64 (mod 4),m,,,,,0,6,6,23,,,,,,,,,,,z,0,4.16531624875,,,,,,2016_Nov_11_1350,59.8990831373,MA task,,mike,
,,m,8=4 (mod 5),8=3 (mod 5),m,,,,,0,7,7,1,,,,,,,,,,,m,1,3.11570251572,,,,,,2016_Nov_11_1350,59.8990831373,MA task,,mike,
,,m,54=43 (mod 4),50=41 (mod 3),m,,,,,0,8,8,15,,,,,,,,,,,m,1,2.71587180103,,,,,,2016_Nov_11_1350,59.8990831373,MA task,,mike,
,,z,33=27 (mod 6),31=25 (mod 6),z,,,,,0,9,9,20,,,,,,,,,,,m,0,2.28267382749,,,,,,2016_Nov_11_1350,59.8990831373,MA task,,mike,
,,z,18=11 (mod 7),15=11 (mod 4),z,,,,,0,10,10,16,,,,,,,,,,,m,0,1.89951114921,,,,,,2016_Nov_11_1350,59.8990831373,MA task,,mike,
,,z,95=58 (mod 3),95=58 (mod 3),z,,,,,0,11,11,12,,,,,,,,,,,z,1,1.96612128959,,,,,,2016_Nov_11_1350,59.8990831373,MA task,,mike,
,,m,7=4 (mod 4),7=1 (mod 4),m,,,,,0,12,12,5,,,,,,,,,,,m,1,1.5163070118,,,,,,2016_Nov_11_1350,59.8990831373,MA task,,mike,
,,z,61=56 (mod 5),64=59 (mod 5),z,,,,,0,13,13,18,,,,,,,,,,,m,0,1.19978565998,,,,,,2016_Nov_11_1350,59.8990831373,MA task,,mike,
,,z,5=2 (mod 3),6=4 (mod 2),z,,,,,0,14,14,6,,,,,,,,,,,m,0,2.18268578826,,,,,,2016_Nov_11_1350,59.8990831373,MA task,,mike,
,,z,4=1 (mod 3),8=6 (mod 2),z,,,,,0,15,15,4,,,,,,,,,,,z,1,1.68293784506,,,,,,2016_Nov_11_1350,59.8990831373,MA task,,mike,
,,m,59=57 (mod 3),54=52 (mod 3),m,,,,,0,16,16,21,,,,,,,,,,,m,1,1.83281955814,,,,,,2016_Nov_11_1350,59.8990831373,MA task,,mike,
,,m,6=4 (mod 3) ,8=2 (mod 3) ,m,,,,,0,17,17,7,,,,,,,,,,,m,1,1.74956889846,,,,,,2016_Nov_11_1350,59.8990831373,MA task,,mike,
,,m,50=21 (mod 6),50=29 (mod 5),m,,,,,0,18,18,9,,,,,,,,,,,m,1,3.14904225749,,,,,,2016_Nov_11_1350,59.8990831373,MA task,,mike,
,,z,65=33 (mod 8),67=37 (mod 5),z,,,,,0,19,19,14,,,,,,,,,,,m,0,3.56554651199,,,,,,2016_Nov_11_1350,59.8990831373,MA task,,mike,
,,z,42=22 (mod 5),49=24 (mod 5),z,,,,,0,20,20,10,,,,,,,,,,,z,1,2.93241355222,,,,,,2016_Nov_11_1350,59.8990831373,MA task,,mike,
,,z,6=3 (mod 3),5=2 (mod 3),z,,,,,0,21,21,0,,,,,,,,,,,z,1,1.83286395243,,,,,,2016_Nov_11_1350,59.8990831373,MA task,,mike,
,,m,78=74 (mod 2),77=73 (mod 2),m,,,,,0,22,22,17,,,,,,,,,,,z,0,1.99943241355,,,,,,2016_Nov_11_1350,59.8990831373,MA task,,mike,
,,z,67=33 (mod 2),62=32 (mod 3),z,,,,,0,23,23,8,,,,,,,,,,,z,1,2.79912906482,,,,,,2016_Nov_11_1350,59.8990831373,MA task,,mike,
,,,,,,,,,,,,,,,,,,,,,,,,,,,space,16.3272607331,,,,2016_Nov_11_1350,59.8990831373,MA task,,mike,
,,z,18=11 (mod 7),15=11 (mod 4),z,,,,,,,,,0,0,0,16,,,,,,,,,,,,z,1,4.24857938285,2016_Nov_11_1350,59.8990831373,MA task,,mike,
,,z,22=18 (mod 4),26=22 (mod 4),z,,,,,,,,,0,1,1,22,,,,,,,,,,,,z,1,4.61517418703,2016_Nov_11_1350,59.8990831373,MA task,,mike,
,,z,65=33 (mod 8),67=37 (mod 5),z,,,,,,,,,0,2,2,14,,,,,,,,,,,,z,1,1.6162675339,2016_Nov_11_1350,59.8990831373,MA task,,mike,
,,m,77=42 (mod 4),74=49 (mod 4),m,,,,,,,,,0,3,3,11,,,,,,,,,,,,m,1,2.61591458099,2016_Nov_11_1350,59.8990831373,MA task,,mike,
,,z,61=56 (mod 5),64=59 (mod 5),z,,,,,,,,,0,4,4,18,,,,,,,,,,,,z,1,3.76543380188,2016_Nov_11_1350,59.8990831373,MA task,,mike,
,,z,9=2 (mod 7),8=4 (mod 4),z,,,,,,,,,0,5,5,2,,,,,,,,,,,,z,1,2.49925667088,2016_Nov_11_1350,59.8990831373,MA task,,mike,
,,m,8=4 (mod 5),8=3 (mod 5),m,,,,,,,,,0,6,6,1,,,,,,,,,,,,m,1,2.68254600129,2016_Nov_11_1350,59.8990831373,MA task,,mike,
,,m,6=4 (mod 3) ,8=2 (mod 3) ,m,,,,,,,,,0,7,7,7,,,,,,,,,,,,m,1,2.46602479623,2016_Nov_11_1350,59.8990831373,MA task,,mike,
,,m,6=3 (mod 2),9=7 (mod 4),m,,,,,,,,,0,8,8,3,,,,,,,,,,,,m,1,1.69961432007,2016_Nov_11_1350,59.8990831373,MA task,,mike,
,,z,6=3 (mod 3),5=2 (mod 3),z,,,,,,,,,0,9,9,0,,,,,,,,,,,,z,1,3.48222027197,2016_Nov_11_1350,59.8990831373,MA task,,mike,
,,m,85=74(mod 5),85=74 (mod 5),m,,,,,,,,,0,10,10,13,,,,,,,,,,,,m,1,2.43262048095,2016_Nov_11_1350,59.8990831373,MA task,,mike,
,,z,95=58 (mod 3),95=58 (mod 3),z,,,,,,,,,0,11,11,12,,,,,,,,,,,,m,0,2.76579335891,2016_Nov_11_1350,59.8990831373,MA task,,mike,
,,m,68=63 (mod 4),69=64 (mod 4),m,,,,,,,,,0,12,12,23,,,,,,,,,,,,z,0,3.53222621567,2016_Nov_11_1350,59.8990831373,MA task,,mike,
,,m,54=43 (mod 4),50=41 (mod 3),m,,,,,,,,,0,13,13,15,,,,,,,,,,,,z,0,1.99943021219,2016_Nov_11_1350,59.8990831373,MA task,,mike,
,,z,67=33 (mod 2),62=32 (mod 3),z,,,,,,,,,0,14,14,8,,,,,,,,,,,,z,1,4.56514366137,2016_Nov_11_1350,59.8990831373,MA task,,mike,
,,m,84=76 (mod 5),88=79 (mod 5),m,,,,,,,,,0,15,15,19,,,,,,,,,,,,z,0,4.31526840564,2016_Nov_11_1350,59.8990831373,MA task,,mike,
,,z,42=22 (mod 5),49=24 (mod 5),z,,,,,,,,,0,16,16,10,,,,,,,,,,,,z,1,3.69871689507,2016_Nov_11_1350,59.8990831373,MA task,,mike,
,,m,59=57 (mod 3),54=52 (mod 3),m,,,,,,,,,0,17,17,21,,,,,,,,,,,,m,1,1.64957608961,2016_Nov_11_1350,59.8990831373,MA task,,mike,
,,m,7=4 (mod 4),7=1 (mod 4),m,,,,,,,,,0,18,18,5,,,,,,,,,,,,m,1,1.88286622717,2016_Nov_11_1350,59.8990831373,MA task,,mike,
,,z,33=27 (mod 6),31=25 (mod 6),z,,,,,,,,,0,19,19,20,,,,,,,,,,,,m,0,3.76548369959,2016_Nov_11_1350,59.8990831373,MA task,,mike,
,,m,78=74 (mod 2),77=73 (mod 2),m,,,,,,,,,0,20,20,17,,,,,,,,,,,,z,0,1.84955803838,2016_Nov_11_1350,59.8990831373,MA task,,mike,
,,z,4=1 (mod 3),8=6 (mod 2),z,,,,,,,,,0,21,21,4,,,,,,,,,,,,z,1,1.69958313397,2016_Nov_11_1350,59.8990831373,MA task,,mike,
,,z,5=2 (mod 3),6=4 (mod 2),z,,,,,,,,,0,22,22,6,,,,,,,,,,,,z,1,1.61630862614,2016_Nov_11_1350,59.8990831373,MA task,,mike,
,,m,50=21 (mod 6),50=29 (mod 5),m,,,,,,,,,0,23,23,9,,,,,,,,,,,,m,1,4.59852449538,2016_Nov_11_1350,59.8990831373,MA task,,mike,
